File: Raman/notes/p-propylene-2.txt
151.973	1465.52
154.065	1427.69
156.156	1452.97
158.247	1452.58
160.337	1453.65
162.426	1453.64
164.514	1453.7
166.602	1453.58
168.689	1455.33
170.776	1456.05
172.861	1455.13
174.946	1450.38
177.03	1444.52
179.114	1437.91
181.197	1430.45
183.279	1422.41
185.36	1421.27
187.441	1422.7
189.521	1425.1
191.6	1430.98
193.679	1431.13
195.757	1431.48
197.834	1426.43
199.911	1423.55
201.987	1416.65
204.062	1412.67
206.136	1407.26
208.21	1403.12
210.283	1402.32
212.356	1403.66
214.428	1409.56
216.499	1413.18
218.569	1417.79
220.639	1419.35
222.708	1410.77
224.776	1402.42
226.844	1394.4
228.911	1387.99
230.977	1381.53
233.043	1380.39
235.108	1381.78
237.172	1383.67
239.236	1385.6
241.298	1386.79
243.36	1386.78
245.421	1386.18
247.482	1385.05
249.542	1383.32
251.602	1381.05
253.661	1378.29
255.719	1377.31
257.776	1374.12
259.832	1366.76
261.888	1360.15
263.944	1355.53
265.998	1352.04
268.052	1350.8
270.106	1349.59
272.158	1347.97
274.21	1345.93
276.261	1343.16
278.312	1339.96
280.362	1335.54
282.41	1330.97
284.459	1327.41
286.507	1320.72
288.554	1309.63
290.601	1298.51
292.646	1285.61
294.691	1278.88
296.736	1283.02
298.78	1292.35
300.822	1298.17
302.865	1307.21
304.907	1319.83
306.948	1331.17
308.988	1341.01
311.027	1349.31
313.067	1353.51
315.105	1346.83
317.142	1340.55
319.18	1322.17
321.216	1310.59
323.251	1300.01
325.286	1291.11
327.321	1284.72
329.354	1281.35
331.387	1282.62
333.42	1300.57
335.451	1293.95
337.482	1342.15
339.513	1273.28
341.542	1234.25
343.571	1240.01
345.599	1256.26
347.626	1263.57
349.654	1262.56
351.68	1258.65
353.705	1255.24
355.731	1251.79
357.754	1248.55
359.778	1245.15
361.802	1241.8
363.823	1238.22
365.845	1234.43
367.866	1230.2
369.886	1225.48
371.906	1219.93
373.925	1222.14
375.943	1227.1
377.96	1232.98
379.978	1240.23
381.993	1248.45
384.01	1258.12
386.024	1264.86
388.039	1278.49
390.052	1296.38
392.065	1305.66
394.077	1300.53
396.089	1285.58
398.1	1263.39
400.11	1242.09
402.12	1233.11
404.129	1233.14
406.137	1234.49
408.145	1237.78
410.152	1241.5
412.159	1244.45
414.164	1245.6
416.169	1241.08
418.173	1226.94
420.177	1210.32
422.18	1199.13
424.182	1191.39
426.185	1187.17
428.185	1186.06
430.186	1187.99
432.186	1187.2
434.184	1185.21
436.184	1181.06
438.181	1177.49
440.179	1174.23
442.175	1171.93
444.17	1171.21
446.166	1170.51
448.16	1170.35
450.154	1170.15
452.148	1170.29
454.14	1170.19
456.132	1170.37
458.124	1174.37
460.114	1173.76
462.104	1170.86
464.094	1166.27
466.082	1161.19
468.07	1157.27
470.058	1154.02
472.044	1153.47
474.03	1158.59
476.015	1164.38
478.001	1170.24
479.985	1173.74
481.968	1175.22
483.952	1171.89
485.934	1166.25
487.915	1158.04
489.896	1147.21
491.876	1136.23
493.856	1125.11
495.835	1114.68
497.813	1110.32
499.79	1109.65
501.768	1127.57
503.744	1131.08
505.72	1132.77
507.695	1131.78
509.669	1130.9
511.644	1130.92
513.617	1131.72
515.589	1133.63
517.561	1134.88
519.532	1135.71
521.503	1137.26
523.473	1138.19
525.443	1137.97
527.411	1136.28
529.379	1132.97
531.346	1126.38
533.313	1120.66
535.279	1118.28
537.245	1115.22
539.209	1113.51
541.174	1113.44
543.138	1113.06
545.101	1111.43
547.063	1106.88
549.025	1100.75
550.986	1093.31
552.946	1084.96
554.906	1078.08
556.865	1075.89
558.823	1076.64
560.781	1076.93
562.738	1075.25
564.695	1072.8
566.651	1069.95
568.606	1067.53
570.561	1066.23
572.515	1065.54
574.468	1065.11
576.421	1065.74
578.373	1068.51
580.325	1072.92
582.276	1086.01
584.226	1082.9
586.176	1081.05
588.125	1075.73
590.073	1061.94
592.021	1059.09
593.968	1054.86
595.915	1053.71
597.861	1057.24
599.806	1062.72
601.75	1069.52
603.695	1072.68
605.638	1071.83
607.58	1067.18
609.522	1059.08
611.464	1046.77
613.405	1037.51
615.345	1035.2
617.285	1032.96
619.224	1032.2
621.162	1028.11
623.1	1025.81
625.036	1023.77
626.973	1022.65
628.909	1021.64
630.844	1020.56
632.779	1018.64
634.713	1016.28
636.646	1013.98
638.579	1011.75
640.511	1009.78
642.442	1008.56
644.373	1007.85
646.303	1007.47
648.233	1006.94
650.162	1007.79
652.091	1011.54
654.018	1017.92
655.945	1029.85
657.872	1030.82
659.798	1025.07
661.722	1009.64
663.647	1002.16
665.572	1004.7
667.495	1009.52
669.417	1022.97
671.34	1036.08
673.262	1046.01
675.182	1052.02
677.103	1050.3
679.023	1047.55
680.942	1036.63
682.86	1022.74
684.778	1008.97
686.695	998.351
688.611	994.367
690.528	991.846
692.443	990.041
694.358	978.36
696.272	966.52
698.185	954.537
700.098	944.519
702.011	941.495
703.922	940.417
705.834	945.02
707.744	950.45
709.654	965.493
711.564	972.677
713.472	977.229
715.38	956.9
717.287	925.747
719.194	937.964
721.101	950.546
723.006	950.776
724.911	945.944
726.815	944.271
728.719	943.671
730.622	944.782
732.525	947.419
734.427	949.564
736.328	957.039
738.229	968.906
740.129	979.749
742.028	988.585
743.928	984.383
745.826	976.598
747.724	966.233
749.62	953.764
751.517	939.996
753.413	925.027
755.309	913.736
757.203	908.222
759.097	904.879
760.991	904.627
762.883	910.835
764.776	919.493
766.667	929.02
768.559	934.913
770.449	930.596
772.338	930.688
774.228	929.333
776.116	928.901
778.005	929.578
779.892	931.553
781.779	929.273
783.665	923.546
785.551	918.492
787.435	912.097
789.32	907.811
791.204	907.542
793.087	912.41
794.97	922.396
796.852	938.205
798.733	956.476
800.614	970.602
802.494	982.633
804.374	982.212
806.253	972.067
808.132	953.157
810.009	935.634
811.886	919.751
813.764	904.992
815.639	900.704
817.515	900.576
819.389	902.213
821.264	905.208
823.138	909.4
825.011	914.15
826.883	919.735
828.756	924.973
830.627	930.782
832.497	938.211
834.367	944.232
836.237	945.084
838.106	940.121
839.974	928.837
841.842	915.782
843.709	902.661
845.575	889.621
847.442	876.654
849.307	863.663
851.172	854.226
853.036	857.333
854.9	861.024
856.763	863.746
858.625	865.575
860.487	865.993
862.349	865.666
864.209	864.167
866.069	862.037
867.929	858.824
869.788	853.753
871.646	848.643
873.503	844.332
875.361	841.498
877.217	839.326
879.073	838.167
880.928	837.481
882.783	838.167
884.637	839.608
886.491	840.956
888.345	841.054
890.197	839.98
892.049	837.213
893.9	834.063
895.751	829.701
897.601	823.121
899.451	816.808
901.3	813.016
903.148	809.007
904.995	808.608
906.842	810.071
908.689	818.368
910.535	824.953
912.381	831.832
914.226	830.967
916.07	826.635
917.914	823.141
919.757	821.031
921.599	815.704
923.442	809.471
925.283	806.248
927.124	804.734
928.964	804.587
930.803	810.372
932.642	810.82
934.481	814.491
936.319	810.307
938.157	809.811
939.993	809.412
941.83	810.193
943.665	810.91
945.5	811.08
947.334	810.829
949.169	810.032
951.002	808.754
952.835	806.944
954.666	803.04
956.498	799.77
958.329	797.241
960.16	797.023
961.99	801.779
963.819	805.487
965.648	819.429
967.476	819.272
969.304	817.222
971.13	806.036
972.957	797.181
974.783	788.625
976.608	784.424
978.432	783.834
980.257	786.773
982.081	790.146
983.903	794.229
985.726	799.126
987.548	804.67
989.369	811.755
991.19	817.471
993.01	820.936
994.829	822.207
996.648	820.815
998.467	817.993
1000.28	811.158
1002.1	801.98
1003.92	790.898
1005.73	779.873
1007.55	772.56
1009.37	765.607
1011.18	760.012
1012.99	755.347
1014.81	753.797
1016.62	755.765
1018.43	762.56
1020.24	767.911
1022.06	775.63
1023.87	782.797
1025.68	790.971
1027.48	794.731
1029.29	794.991
1031.1	791.252
1032.91	785.897
1034.72	779.773
1036.52	773.363
1038.33	767.154
1040.13	761.681
1041.94	756.552
1043.74	752.639
1045.55	748.684
1047.35	744.097
1049.15	741.55
1050.96	741.539
1052.76	742.634
1054.56	743.894
1056.36	742.374
1058.16	740.801
1059.96	739.143
1061.76	736.83
1063.55	728.608
1065.35	727.493
1067.15	730.737
1068.94	732.987
1070.74	734.47
1072.54	734.835
1074.33	734.526
1076.13	733.436
1077.92	731.538
1079.71	727.932
1081.5	723.374
1083.3	723.063
1085.09	725.394
1086.88	729.322
1088.67	735.012
1090.46	729.293
1092.25	723.589
1094.04	720.091
1095.83	718.167
1097.61	717.83
1099.4	717.952
1101.19	725.2
1102.97	732.274
1104.76	738.628
1106.54	744.436
1108.33	746.733
1110.11	746.161
1111.89	743.464
1113.68	739.186
1115.46	733.49
1117.24	727.694
1119.02	721.348
1120.8	714.694
1122.58	708.126
1124.36	702.51
1126.14	698.169
1127.92	699.293
1129.69	702.961
1131.47	709.513
1133.25	720.958
1135.02	732.716
1136.8	742.742
1138.57	749.002
1140.35	745.371
1142.12	749.218
1143.9	753.229
1145.67	756.037
1147.44	758.401
1149.21	760.45
1150.98	763.018
1152.75	758.534
1154.52	751.391
1156.29	741.883
1158.06	734.222
1159.83	730.024
1161.6	726.552
1163.36	724.718
1165.13	723.851
1166.9	724.226
1168.66	724.658
1170.43	724.533
1172.19	723.79
1173.96	722.319
1175.72	720.121
1177.48	716.954
1179.25	712.584
1181.01	706.463
1182.77	700.643
1184.53	693.674
1186.29	692.293
1188.05	700.057
1189.81	703.565
1191.57	707.18
1193.32	709.417
1195.08	706.633
1196.84	701.992
1198.6	702.834
1200.35	700.171
1202.11	702.009
1203.86	709.793
1205.61	715.845
1207.37	720.013
1209.12	710.663
1210.87	703.602
1212.63	704.998
1214.38	716.95
1216.13	727.077
1217.88	703.038
1219.63	683.112
1221.38	675.668
1223.13	669.492
1224.88	665.336
1226.62	661.462
1228.37	657.079
1230.12	653.018
1231.86	649.252
1233.61	646.036
1235.35	641.044
1237.1	640.711
1238.84	649.64
1240.59	659.119
1242.33	683.796
1244.07	688.168
1245.81	686.072
1247.55	673.504
1249.3	665.973
1251.04	660.259
1252.78	655.064
1254.51	658.09
1256.25	665.794
1257.99	670.31
1259.73	667.502
1261.47	660.924
1263.2	655.296
1264.94	651.549
1266.67	649.604
1268.41	649.21
1270.14	650.605
1271.88	654.475
1273.61	660.59
1275.34	669.675
1277.08	675.05
1278.81	672.517
1280.54	669.968
1282.27	667.719
1284	665.738
1285.73	663.884
1287.46	662.302
1289.19	661.389
1290.92	661.697
1292.64	663.768
1294.37	664.267
1296.1	665.709
1297.82	663.709
1299.55	660.418
1301.27	656.758
1303	653.976
1304.72	652.821
1306.44	652.158
1308.17	653.551
1309.89	655.997
1311.61	657.814
1313.33	663.9
1315.05	671.969
1316.77	681.279
1318.49	690.42
1320.21	693.944
1321.93	695.773
1323.65	696.241
1325.37	697.747
1327.08	702.494
1328.8	706.449
1330.52	712.884
1332.23	718.138
1333.95	723.384
1335.66	726.919
1337.38	727.088
1339.09	724.675
1340.8	715.741
1342.51	704.702
1344.23	689.816
1345.94	637.45
1347.65	620.173
1349.36	618.41
1351.07	624.902
1352.78	640.615
1354.49	651.13
1356.19	658.222
1357.9	661.66
1359.61	663.277
1361.32	652.633
1363.02	642.541
1364.73	633.795
1366.43	626.516
1368.14	621.201
1369.84	617.093
1371.55	615.777
1373.25	616.457
1374.95	616.819
1376.65	620.235
1378.35	614.226
1380.06	608.493
1381.76	608.505
1383.46	608.357
1385.15	608.18
1386.85	607.969
1388.55	608.085
1390.25	606.221
1391.95	604.755
1393.64	604.152
1395.34	606.204
1397.04	608.141
1398.73	610.818
1400.43	613.016
1402.12	615.066
1403.81	617.113
1405.51	618.543
1407.2	619.143
1408.89	620.758
1410.59	620.779
1412.28	617.318
1413.97	607.498
1415.66	594.612
1417.35	582.805
1419.04	582.867
1420.72	580.454
1422.41	582.398
1424.1	589.159
1425.79	597.461
1427.47	602.588
1429.16	604.351
1430.85	605.306
1432.53	606.648
1434.22	608.819
1435.9	612.26
1437.58	616.837
1439.27	622.769
1440.95	630.419
1442.63	642.103
1444.31	652.98
1445.99	661.952
1447.67	668.168
1449.35	671.86
1451.03	672.727
1452.71	671.25
1454.39	667.629
1456.07	663.428
1457.75	655.281
1459.42	643.82
1461.1	624.917
1462.78	607.531
1464.45	594.843
1466.13	579.069
1467.8	573.886
1469.48	573.944
1471.15	574.781
1472.82	575.086
1474.5	576.001
1476.17	572.472
1477.84	567.233
1479.51	563.581
1481.18	560.8
1482.85	559.687
1484.52	560.716
1486.19	564.413
1487.86	568.56
1489.53	572.574
1491.19	574.874
1492.86	586.084
1494.53	576.743
1496.19	564.244
1497.86	548.019
1499.52	535.404
1501.19	526.884
1502.85	522.252
1504.52	525.262
1506.18	544.172
1507.84	585.437
1509.5	582.781
1511.16	570.195
1512.82	555.712
1514.49	554.738
1516.15	556.633
1517.8	571.452
1519.46	586.774
1521.12	609.316
1522.78	629.199
1524.44	647.199
1526.09	652.98
1527.75	645.536
1529.41	632.418
1531.06	609.483
1532.72	589.547
1534.37	572.565
1536.03	558.622
1537.68	547.279
1539.33	544.384
1540.99	542.937
1542.64	540.624
1544.29	541.798
1545.94	545.338
1547.59	546.512
1549.24	548.168
1550.89	543.483
1552.54	535.021
1554.19	529.643
1555.84	522.497
1557.49	516.818
1559.13	518.349
1560.78	519.581
1562.42	521.188
1564.07	522.802
1565.72	524.36
1567.36	525.08
1569.01	524.167
1570.65	521.887
1572.29	518.163
1573.93	513.258
1575.58	507.148
1577.22	499.974
1578.86	496.198
1580.5	496.005
1582.14	499.393
1583.78	501.288
1585.42	504.399
1587.06	507.49
1588.7	503.812
1590.34	500.709
1591.97	497.96
1593.61	498.408
1595.25	502.929
1596.88	506.444
1598.52	513.363
1600.15	516.085
1601.79	515.461
1603.42	511.389
1605.05	498.268
1606.69	491.732
1608.32	488.265
1609.95	492.047
1611.58	495.776
1613.21	498.59
1614.85	500.291
1616.48	500.234
1618.11	498.276
1619.73	494.058
1621.36	488.512
1622.99	482.835
1624.62	473.59
1626.25	472.464
1627.87	470.059
1629.5	472.197
1631.13	475.209
1632.75	478.433
1634.38	480.559
1636	481.018
1637.62	479.929
1639.25	478.03
1640.87	475.818
1642.49	473.733
1644.11	471.984
1645.74	470.269
1647.36	469.071
1648.98	467.86
1650.6	466.783
1652.22	465.925
1653.84	463.653
1655.45	460.835
1657.07	458.239
1658.69	456.261
1660.31	455.882
1661.92	455.142
1663.54	457.789
1665.16	460.621
1666.77	464.501
1668.39	467.727
1670	470.121
1671.61	467.068
1673.23	461.864
1674.84	455.317
1676.45	448.04
1678.06	437.381
1679.68	437.375
1681.29	443.682
1682.9	454.624
1684.51	464.921
1686.12	470.82
1687.73	474.12
1689.34	473.551
1690.94	469.639
1692.55	463.386
1694.16	456.014
1695.76	450.953
1697.37	430.694
1698.98	412.765
1700.58	429.599
1702.19	445.239
1703.79	449.907
1705.39	448.781
1707	445.261
1708.6	440.386
1710.2	435.267
1711.81	429.93
1713.41	424.179
1715.01	419.188
1716.61	420.515
1718.21	427.279
1719.81	430.978
1721.41	432.577
1723.01	431.625
1724.6	428.397
1726.2	423.089
1727.8	415.434
1729.4	409.93
1730.99	410.923
1732.59	416.144
1734.18	422.514
1735.78	426.889
1737.37	429.115
1738.97	428.72
1740.56	426.029
1742.15	421.242
1743.75	415.765
1745.34	412.632
1746.93	413.329
1748.52	416.379
1750.11	418.159
1751.7	418.821
1753.29	418.206
1754.88	416.665
1756.47	414.269
1758.06	411.241
1759.65	407.811
1761.23	404.356
1762.82	401.994
1764.41	405.073
1765.99	408.613
1767.58	410.535
1769.16	410.863
1770.75	410.191
1772.33	408.724
1773.92	406.103
1775.5	403.27
1777.08	400.143
1778.67	393.58
1780.25	387.942
1781.83	385.423
1783.41	390.151
1784.99	398.133
1786.57	400.835
1788.15	396.327
1789.73	390.722
1791.31	384.302
1792.89	378.358
1794.46	372.268
1796.04	368.908
1797.62	365.273
1799.19	381.163
1800.77	388.764
1802.35	381.765
1803.92	379.744
1805.5	379.487
1807.07	380.678
1808.64	382.438
1810.22	384.434
1811.79	386.769
1813.36	388.715
1814.93	390.075
1816.5	390.293
1818.08	389.555
1819.65	387.977
1821.22	385.311
1822.78	381.831
1824.35	377.719
1825.92	373.561
1827.49	370.152
1829.06	369.057
1830.63	364.974
1832.19	359.03
1833.76	350.52
1835.32	348.593
1836.89	353.562
1838.46	359.225
1840.02	359.546
1841.58	358.883
1843.15	357.786
1844.71	356.413
1846.27	355.162
1847.84	353.761
1849.4	359.118
1850.96	363.64
1852.52	366.14
1854.08	367.146
1855.64	366.541
1857.2	364.23
1858.76	360.196
1860.32	354.072
1861.87	347.237
1863.43	341.353
1864.99	339.606
1866.55	341.25
1868.1	341.937
1869.66	346.16
1871.21	348.54
1872.77	348.576
1874.32	346.191
1875.88	342.84
1877.43	339.53
1878.98	336.179
1880.54	333.587
1882.09	331.785
1883.64	330.941
1885.19	331.121
1886.74	332.282
1888.29	334.545
1889.84	337.686
1891.39	341.819
1892.94	347.21
1894.49	353.368
1896.04	358.304
1897.59	361.855
1899.14	362.677
1900.68	357.857
1902.23	352.177
1903.77	344.441
1905.32	337.563
1906.86	332.46
1908.41	330.135
1909.95	328.475
1911.5	328.193
1913.04	333.129
1914.58	334.86
1916.13	330.811
1917.67	326.595
1919.21	326.083
1920.75	327.624
1922.29	328.969
1923.83	328.961
1925.37	328.292
1926.91	326.745
1928.45	324.328
1929.99	320.524
1931.53	315.348
1933.06	307.885
1934.6	304.801
1936.14	311.774
1937.67	317.906
1939.21	321.416
1940.74	320.914
1942.28	317.792
1943.81	316.749
1945.35	317.361
1946.88	323.029
1948.41	326.115
1949.95	325.383
1951.48	322.75
1953.01	316.975
1954.54	311.047
1956.07	307.952
1957.6	306.921
1959.13	308.512
1960.66	314.351
1962.19	320.642
1963.72	319.067
1965.25	312.983
1966.78	307.375
1968.31	302.99
1969.83	299.555
1971.36	296.314
1972.88	287.303
1974.41	294.076
1975.94	345.75
1977.46	332.691
1978.98	326.097
1980.51	308.586
1982.03	294.63
1983.56	284.704
1985.08	280.398
1986.6	279.738
1988.12	281.973
1989.64	285.914
1991.16	291.377
1992.68	299.201
1994.2	308.91
1995.72	299.274
1997.24	286.725
1998.76	317.118